study_word,t_word,reference,old_new,loop.thisRepN,loop.thisTrialN,loop.thisN,loop.thisIndex,trials.thisRepN,trials.thisTrialN,trials.thisN,trials.thisIndex,thisRow.t,notes,trial.started,text.started,slider.started,text.stopped,trial.stopped,slider.response,slider.rt,test.started,text_2.started,textbox.started,text_3.started,mouse.started,test.stopped,textbox.text,mouse.x,mouse.y,mouse.leftButton,mouse.midButton,mouse.rightButton,mouse.time,mouse.clicked_name,participant,session,date,expName,psychopyVersion,frameRate,expStart,
lyrics,,,,0,0,0,13,,,,,0.09765970008447766,,0.04934240016154945,0.09765970008447766,0.09765970008447766,8.09725570003502,11.017725200159475,1,10.945860299980268,,,,,,,,,,,,,,,PAR_FINAL2,001,2024-11-07_15h20.10.724,Word Priming,2024.1.5,None,2024-11-07 15h20.40.241487 +0530,
keys,,,,0,1,1,5,,,,,11.079644300043583,,11.05272309994325,11.079644300043583,11.079644300043583,,12.151038800133392,1,1.0762861999683082,,,,,,,,,,,,,,,PAR_FINAL2,001,2024-11-07_15h20.10.724,Word Priming,2024.1.5,None,2024-11-07 15h20.40.241487 +0530,
drums,,,,0,2,2,6,,,,,12.179447100032121,,12.151249200105667,12.179447100032121,12.179447100032121,,13.017522000009194,1,0.8441099999472499,,,,,,,,,,,,,,,PAR_FINAL2,001,2024-11-07_15h20.10.724,Word Priming,2024.1.5,None,2024-11-07 15h20.40.241487 +0530,
poetry,,,,0,3,3,12,,,,,13.045975400134921,,13.017730500083417,13.045975400134921,13.045975400134921,,13.68455190001987,1,0.6440695999190211,,,,,,,,,,,,,,,PAR_FINAL2,001,2024-11-07_15h20.10.724,Word Priming,2024.1.5,None,2024-11-07 15h20.40.241487 +0530,
guitar,,,,0,4,4,8,,,,,13.71264070016332,,13.684764900011942,13.71264070016332,13.71264070016332,,14.217696000123397,1,0.5102917000185698,,,,,,,,,,,,,,,PAR_FINAL2,001,2024-11-07_15h20.10.724,Word Priming,2024.1.5,None,2024-11-07 15h20.40.241487 +0530,
card,,,,0,5,5,7,,,,,14.24565579998307,,14.217905499972403,14.24565579998307,14.24565579998307,,14.684093600139022,1,0.44596699997782707,,,,,,,,,,,,,,,PAR_FINAL2,001,2024-11-07_15h20.10.724,Word Priming,2024.1.5,None,2024-11-07 15h20.40.241487 +0530,
right,,,,0,6,6,14,,,,,14.71258100005798,,14.684304400114343,14.71258100005798,14.71258100005798,,15.150661800056696,1,0.4448033000808209,,,,,,,,,,,,,,,PAR_FINAL2,001,2024-11-07_15h20.10.724,Word Priming,2024.1.5,None,2024-11-07 15h20.40.241487 +0530,
cable,,,,0,7,7,10,,,,,15.179185600019991,,15.150875499937683,15.179185600019991,15.179185600019991,,15.616912700003013,1,0.4455489998217672,,,,,,,,,,,,,,,PAR_FINAL2,001,2024-11-07_15h20.10.724,Word Priming,2024.1.5,None,2024-11-07 15h20.40.241487 +0530,
tiger,,,,0,8,8,1,,,,,15.645826200023293,,15.617126200115308,15.645826200023293,15.645826200023293,,15.950422400142998,1,0.3129923001397401,,,,,,,,,,,,,,,PAR_FINAL2,001,2024-11-07_15h20.10.724,Word Priming,2024.1.5,None,2024-11-07 15h20.40.241487 +0530,
vase,,,,0,9,9,0,,,,,15.979073600145057,,15.950636100023985,15.979073600145057,15.979073600145057,,16.333494700025767,1,0.36156359990127385,,,,,,,,,,,,,,,PAR_FINAL2,001,2024-11-07_15h20.10.724,Word Priming,2024.1.5,None,2024-11-07 15h20.40.241487 +0530,
piano,,,,0,10,10,4,,,,,16.362330100033432,,16.33371020015329,16.362330100033432,16.362330100033432,,16.650656800018623,1,0.29517729999497533,,,,,,,,,,,,,,,PAR_FINAL2,001,2024-11-07_15h20.10.724,Word Priming,2024.1.5,None,2024-11-07 15h20.40.241487 +0530,
cushion,,,,0,11,11,3,,,,,16.67898550000973,,16.650864999974146,16.67898550000973,16.67898550000973,,17.300399800064042,1,0.6291284000035375,,,,,,,,,,,,,,,PAR_FINAL2,001,2024-11-07_15h20.10.724,Word Priming,2024.1.5,None,2024-11-07 15h20.40.241487 +0530,
drip,,,,0,12,12,11,,,,,17.328796999994665,,17.300614000065252,17.328796999994665,17.328796999994665,,18.01698420010507,1,0.6962891998700798,,,,,,,,,,,,,,,PAR_FINAL2,001,2024-11-07_15h20.10.724,Word Priming,2024.1.5,None,2024-11-07 15h20.40.241487 +0530,
love,,,,0,13,13,9,,,,,18.045337999938056,,18.01719280006364,18.045337999938056,18.045337999938056,,18.766764800064266,1,0.7289851999375969,,,,,,,,,,,,,,,PAR_FINAL2,001,2024-11-07_15h20.10.724,Word Priming,2024.1.5,None,2024-11-07 15h20.40.241487 +0530,
book,,,,0,14,14,2,,,,,18.795284599997103,,18.76697440003045,18.795284599997103,18.795284599997103,,19.28308630012907,1,0.49574650009162724,,,,,,,,,,,,,,,PAR_FINAL2,001,2024-11-07_15h20.10.724,Word Priming,2024.1.5,None,2024-11-07 15h20.40.241487 +0530,
,r__ht,right,old,,,,,0,0,0,14,19.31206910009496,,,,,,,,,19.2881953001488,19.31206910009496,19.31206910009496,19.31206910009496,0.007654599845409393,24.497451200149953,RIGHT,[0.055],[-0.29833333333333334],[1],[0],[0],[5.206113899825141],['text_3'],PAR_FINAL2,001,2024-11-07_15h20.10.724,Word Priming,2024.1.5,None,2024-11-07 15h20.40.241487 +0530,
,ov,love,old,,,,,0,1,1,9,24.511916700052097,,,,,,,,,24.4981271000579,24.511916700052097,24.511916700052097,24.511916700052097,0.0017241998575627804,28.497440200066194,love,[0.055],[-0.29833333333333334],[1],[0],[0],[3.9972031998913735],['text_3'],PAR_FINAL2,001,2024-11-07_15h20.10.724,Word Priming,2024.1.5,None,2024-11-07 15h20.40.241487 +0530,
,c_s_h_o_n,cushion,old,,,,,0,2,2,3,28.511363400146365,,,,,,,,,28.497871699975803,28.511363400146365,28.511363400146365,28.511363400146365,0.001798700075596571,32.530065400060266,cushion,[0.055],[-0.29833333333333334],[1],[0],[0],[4.030072499997914],['text_3'],PAR_FINAL2,001,2024-11-07_15h20.10.724,Word Priming,2024.1.5,None,2024-11-07 15h20.40.241487 +0530,
,k_y_,keys,old,,,,,0,3,3,5,32.544138400116935,,,,,,,,,32.530493800062686,32.544138400116935,32.544138400116935,32.544138400116935,0.0016928999684751034,35.629813600098714,keys,[0.055],[-0.29833333333333334],[1],[0],[0],[3.0972357999999076],['text_3'],PAR_FINAL2,001,2024-11-07_15h20.10.724,Word Priming,2024.1.5,None,2024-11-07 15h20.40.241487 +0530,
,_a_e,vase,old,,,,,0,4,4,0,35.64360180008225,,,,,,,,,35.6302426001057,35.64360180008225,35.64360180008225,35.64360180008225,0.001684300135821104,42.51258830004372,cable,[0.055],[-0.29833333333333334],[1],[0],[0],[6.880287199979648],['text_3'],PAR_FINAL2,001,2024-11-07_15h20.10.724,Word Priming,2024.1.5,None,2024-11-07 15h20.40.241487 +0530,
,dr__,draw,new,,,,,0,5,5,17,42.79216940002516,,,,,,,,,42.51301670004614,42.79216940002516,42.79216940002516,42.79216940002516,0.2661583998706192,49.544816200155765,drip,[0.055],[-0.29833333333333334],[1],[0],[0],[6.765272699994966],['text_3'],PAR_FINAL2,001,2024-11-07_15h20.10.724,Word Priming,2024.1.5,None,2024-11-07 15h20.40.241487 +0530,
,_ru_s,drums,old,,,,,0,6,6,6,49.558660600101575,,,,,,,,,49.54524330003187,49.558660600101575,49.558660600101575,49.558660600101575,0.0016338001005351543,52.52735080011189,drums,[0.055],[-0.29833333333333334],[1],[0],[0],[2.980122399982065],['text_3'],PAR_FINAL2,001,2024-11-07_15h20.10.724,Word Priming,2024.1.5,None,2024-11-07 15h20.40.241487 +0530,
,dr__,drip,old,,,,,0,7,7,11,52.541592499939725,,,,,,,,,52.527776499977335,52.541592499939725,52.541592499939725,52.541592499939725,0.0015489000361412764,55.360618700040504,drip,[0.055],[-0.29833333333333334],[1],[0],[0],[2.8308955000247806],['text_3'],PAR_FINAL2,001,2024-11-07_15h20.10.724,Word Priming,2024.1.5,None,2024-11-07 15h20.40.241487 +0530,
,__rd,card,old,,,,,0,8,8,7,55.374487899942324,,,,,,,,,55.36104910005815,55.374487899942324,55.374487899942324,55.374487899942324,0.0015491999220103025,58.676632300019264,card,[0.055],[-0.29833333333333334],[1],[0],[0],[3.3136865999549627],['text_3'],PAR_FINAL2,001,2024-11-07_15h20.10.724,Word Priming,2024.1.5,None,2024-11-07 15h20.40.241487 +0530,
,r__e,ride,new,,,,,0,9,9,18,58.69070290005766,,,,,,,,,58.6770591000095,58.69070290005766,58.69070290005766,58.69070290005766,0.001555499853566289,61.793011400150135,rope,[0.055],[-0.29833333333333334],[1],[0],[0],[3.114007299998775],['text_3'],PAR_FINAL2,001,2024-11-07_15h20.10.724,Word Priming,2024.1.5,None,2024-11-07 15h20.40.241487 +0530,
,ia_n,piano,old,,,,,0,10,10,4,61.80701690004207,,,,,,,,,61.79343970003538,61.80701690004207,61.80701690004207,61.80701690004207,0.0015978999435901642,71.8073722999543,,[],[],[],[],[],[],[],PAR_FINAL2,001,2024-11-07_15h20.10.724,Word Priming,2024.1.5,None,2024-11-07 15h20.40.241487 +0530,
,po___ry,poetry,old,,,,,0,11,11,12,71.82235860009678,,,,,,,,,71.80776050011627,71.82235860009678,71.82235860009678,71.82235860009678,0.01598629984073341,75.47488939994946,poetry,[0.055],[-0.29833333333333334],[1],[0],[0],[3.665115399984643],['text_3'],PAR_FINAL2,001,2024-11-07_15h20.10.724,Word Priming,2024.1.5,None,2024-11-07 15h20.40.241487 +0530,
,oo,room,new,,,,,0,12,12,19,75.48870430001989,,,,,,,,,75.47531979996711,75.48870430001989,75.48870430001989,75.48870430001989,0.0015852001961320639,78.04078080016188,book,[0.055],[-0.29833333333333334],[1],[0],[0],[2.563496199902147],['text_3'],PAR_FINAL2,001,2024-11-07_15h20.10.724,Word Priming,2024.1.5,None,2024-11-07 15h20.40.241487 +0530,
,oo,book,old,,,,,0,13,13,2,78.05492689996026,,,,,,,,,78.04121059994213,78.05492689996026,78.05492689996026,78.05492689996026,0.0004493999294936657,81.32414299994707,book,[0.055],[-0.29833333333333334],[1],[0],[0],[3.282145199831575],['text_3'],PAR_FINAL2,001,2024-11-07_15h20.10.724,Word Priming,2024.1.5,None,2024-11-07 15h20.40.241487 +0530,
,_abl_,cable,old,,,,,0,14,14,10,81.33781439997256,,,,,,,,,81.32456660014577,81.33781439997256,81.33781439997256,81.33781439997256,0.0016185001004487276,84.54019870003685,cable,[0.055],[-0.29833333333333334],[1],[0],[0],[3.2136115001048893],['text_3'],PAR_FINAL2,001,2024-11-07_15h20.10.724,Word Priming,2024.1.5,None,2024-11-07 15h20.40.241487 +0530,
,g_i_ar,guitar,old,,,,,0,15,15,8,84.55412989994511,,,,,,,,,84.54062810004689,84.55412989994511,84.55412989994511,84.55412989994511,0.001660799840465188,88.08965920004994,guitar,[0.055],[-0.29833333333333334],[1],[0],[0],[3.546915600076318],['text_3'],PAR_FINAL2,001,2024-11-07_15h20.10.724,Word Priming,2024.1.5,None,2024-11-07 15h20.40.241487 +0530,
,t_g_r,tiger,old,,,,,0,16,16,1,88.10368279996328,,,,,,,,,88.09008820005693,88.10368279996328,88.10368279996328,88.10368279996328,0.0021955999545753,93.38898449996486,tiger,[0.055],[-0.29833333333333334],[1],[0],[0],[5.296336499974132],['text_3'],PAR_FINAL2,001,2024-11-07_15h20.10.724,Word Priming,2024.1.5,None,2024-11-07 15h20.40.241487 +0530,
,r__e,rope,new,,,,,0,17,17,15,93.402955400059,,,,,,,,,93.38941369997337,93.402955400059,93.402955400059,93.402955400059,0.001573299989104271,96.25540459994227,ripe,[0.055],[-0.29833333333333334],[1],[0],[0],[2.864034299971536],['text_3'],PAR_FINAL2,001,2024-11-07_15h20.10.724,Word Priming,2024.1.5,None,2024-11-07 15h20.40.241487 +0530,
,lyr___,lyrics,old,,,,,0,18,18,13,96.2692547000479,,,,,,,,,96.25583859998733,96.2692547000479,96.2692547000479,96.2692547000479,0.001657600048929453,99.6880568000488,lyrics,[0.055],[-0.29833333333333334],[1],[0],[0],[3.430139800067991],['text_3'],PAR_FINAL2,001,2024-11-07_15h20.10.724,Word Priming,2024.1.5,None,2024-11-07 15h20.40.241487 +0530,
,r__ch,reach,new,,,,,0,19,19,16,99.7022778999526,,,,,,,,,99.68848569993861,99.7022778999526,99.7022778999526,99.7022778999526,0.0016417000442743301,109.50389389996417,rioch,[0.055],[-0.29833333333333334],[1],[0],[0],[9.81331740017049],['text_3'],PAR_FINAL2,001,2024-11-07_15h20.10.724,Word Priming,2024.1.5,None,2024-11-07 15h20.40.241487 +0530,
